"view_history","rt","trial_type","trial_index","time_elapsed","internal_node_id","subject","responses","stimulus","button_pressed","response"
"[{""page_index"":0,""viewing_time"":4237.819999922067},{""page_index"":1,""viewing_time"":12339.309999952093},{""page_index"":2,""viewing_time"":3677.940000081435}]","20255.48499985598","instructions","0","20274","0.0-0.0","60253","","","",""
"","3936.604999937117","survey-text","1","24212","0.0-1.0","60253","{""Q0"":""62""}","","",""
"","11756.719999946654","survey-text","2","35970","0.0-2.0","60253","{""Q0"":""Completed doctorate""}","","",""
"","13583.130000159144","survey-text","3","49554","0.0-3.0","60253","{""Q0"":""26""}","","",""
"","56764.84499988146","survey-text","4","106321","0.0-4.0","60253","{""Q0"":""Moveable-do, la-based minor (+ some do-based minor & fixed-do)""}","","",""
"","6365.110000129789","survey-text","5","112686","0.0-5.0","60253","{""Q0"":""Trombone""}","","",""
"","14475.195000180975","survey-text","6","127164","0.0-6.0","60253","{""Q0"":""DMA Trombone Performance""}","","",""
"","9027.33499999158","survey-text","7","136192","0.0-7.0","60253","{""Q0"":""College of Southern Idaho""}","","",""
"[{""page_index"":0,""viewing_time"":1799.1899999324232},{""page_index"":1,""viewing_time"":25665.875000180677},{""page_index"":2,""viewing_time"":2207.884999923408},{""page_index"":3,""viewing_time"":4657.979999901727}]","34331.204999936745","instructions","8","170523","0.0-8.0","60253","","","",""
"","15852.669999934733","image-button-response","9","186379","0.0-9.0-0.0","60253","","img/Berkowitz9.png","1",""
"","9760.349999880418","image-button-response","10","196141","0.0-9.0-1.0","60253","","img/Berkowitz9.png","3",""
"","21622.425000183284","image-slider-response","11","217765","0.0-9.0-2.0","60253","","","","22"
"","16170.60500010848","image-slider-response","12","233936","0.0-9.0-3.0","60253","","","","79"
"","2997.0499998889863","image-button-response","13","236934","0.0-9.0-4.0","60253","","img/Berkowitz9.png","1",""
"","25290.785000193864","image-button-response","14","262227","0.0-9.0-0.1","60253","","img/Berkowitz382t.png","2",""
"","5454.92499996908","image-button-response","15","267683","0.0-9.0-1.1","60253","","img/Berkowitz382t.png","7",""
"","8014.720000093803","image-slider-response","16","275699","0.0-9.0-2.1","60253","","","","62"
"","12296.85500008054","image-slider-response","17","287997","0.0-9.0-3.1","60253","","","","62"
"","2465.1950001716614","image-button-response","18","290463","0.0-9.0-4.1","60253","","img/Berkowitz382t.png","1",""
"","71854.77000009269","image-button-response","19","362321","0.0-9.0-0.2","60253","","img/Berkowitz627.png","4",""
"","23554.994999896735","image-button-response","20","385877","0.0-9.0-1.2","60253","","img/Berkowitz627.png","9",""
"","5326.2249999679625","image-slider-response","21","391204","0.0-9.0-2.2","60253","","","","79"
"","6166.960000060499","image-slider-response","22","397372","0.0-9.0-3.2","60253","","","","0"
"","2167.105000000447","image-button-response","23","399540","0.0-9.0-4.2","60253","","img/Berkowitz627.png","1",""
"","32204.98499996029","image-button-response","24","431748","0.0-9.0-0.3","60253","","img/Berkowitz379.png","2",""
"","1876.8299999646842","image-button-response","25","433626","0.0-9.0-1.3","60253","","img/Berkowitz379.png","7",""
"","7512.709999922663","image-slider-response","26","441139","0.0-9.0-2.3","60253","","","","57"
"","8374.975000042468","image-slider-response","27","449515","0.0-9.0-3.3","60253","","","","77"
"","2151.1849998496473","image-button-response","28","451667","0.0-9.0-4.3","60253","","img/Berkowitz379.png","1",""
"","14078.910000156611","image-button-response","29","465747","0.0-9.0-0.4","60253","","img/Berkowitz26.png","1",""
"","4499.044999945909","image-button-response","30","470247","0.0-9.0-1.4","60253","","img/Berkowitz26.png","3",""
"","7402.770000044256","image-slider-response","31","477651","0.0-9.0-2.4","60253","","","","20"
"","4608.939999947324","image-slider-response","32","482261","0.0-9.0-3.4","60253","","","","100"
"","1814.9949999060482","image-button-response","33","484077","0.0-9.0-4.4","60253","","img/Berkowitz26.png","1",""
"","19507.079999893904","image-button-response","34","503586","0.0-9.0-0.5","60253","","img/Berkowitz88.png","2",""
"","3574.8650000896305","image-button-response","35","507162","0.0-9.0-1.5","60253","","img/Berkowitz88.png","7",""
"","6064.65999991633","image-slider-response","36","513228","0.0-9.0-2.5","60253","","","","41"
"","3596.915000118315","image-slider-response","37","516826","0.0-9.0-3.5","60253","","","","100"
"","1933.225000044331","image-button-response","38","518760","0.0-9.0-4.5","60253","","img/Berkowitz88.png","1",""
"","29548.92500001006","image-button-response","39","548310","0.0-9.0-0.6","60253","","img/Berkowitz607tx.png","4",""
"","5142.764999996871","image-button-response","40","553454","0.0-9.0-1.6","60253","","img/Berkowitz607tx.png","9",""
"","10680.759999901056","image-slider-response","41","564136","0.0-9.0-2.6","60253","","","","91"
"","4074.9699999578297","image-slider-response","42","568212","0.0-9.0-3.6","60253","","","","0"
"","1635.0899999961257","image-button-response","43","569848","0.0-9.0-4.6","60253","","img/Berkowitz607tx.png","1",""
"","24182.915000012144","image-button-response","44","594032","0.0-9.0-0.7","60253","","img/Berkowitz294.png","2",""
"","2728.929999982938","image-button-response","45","596762","0.0-9.0-1.7","60253","","img/Berkowitz294.png","7",""
"","3910.6599998194724","image-slider-response","46","600675","0.0-9.0-2.7","60253","","","","50"
"","4561.59000005573","image-slider-response","47","605238","0.0-9.0-3.7","60253","","","","100"
"","2283.274999819696","image-button-response","48","607522","0.0-9.0-4.7","60253","","img/Berkowitz294.png","1",""
"","13220.955000026152","image-button-response","49","620744","0.0-9.0-0.8","60253","","img/Berkowitz629.png","4",""
"","2800.814999965951","image-button-response","50","623547","0.0-9.0-1.8","60253","","img/Berkowitz629.png","7",""
"","5124.784999992698","image-slider-response","51","628673","0.0-9.0-2.8","60253","","","","90"
"","3652.9350001364946","image-slider-response","52","632327","0.0-9.0-3.8","60253","","","","0"
"","1243.5699999332428","image-button-response","53","633572","0.0-9.0-4.8","60253","","img/Berkowitz629.png","1",""
"","7012.719999998808","image-button-response","54","640585","0.0-9.0-0.9","60253","","img/Berkowitz622.png","4",""
"","4967.454999918118","image-button-response","55","645554","0.0-9.0-1.9","60253","","img/Berkowitz622.png","8",""
"","4200.050000101328","image-slider-response","56","649755","0.0-9.0-2.9","60253","","","","100"
"","3786.904999986291","image-slider-response","57","653543","0.0-9.0-3.9","60253","","","","0"
"","2213.065000018105","image-button-response","58","655757","0.0-9.0-4.9","60253","","img/Berkowitz622.png","1",""
"","22197.13500002399","image-button-response","59","677955","0.0-9.0-0.10","60253","","img/Berkowitz156.png","2",""
"","1882.844999898225","image-button-response","60","679839","0.0-9.0-1.10","60253","","img/Berkowitz156.png","7",""
"","3388.8799999840558","image-slider-response","61","683230","0.0-9.0-2.10","60253","","","","50"
"","8784.865000052378","image-slider-response","62","692016","0.0-9.0-3.10","60253","","","","86"
"","2011.0949999652803","image-button-response","63","694028","0.0-9.0-4.10","60253","","img/Berkowitz156.png","1",""
"","25226.905000163242","image-button-response","64","719256","0.0-9.0-0.11","60253","","img/Berkowitz334t.png","3",""
"","2345.5699998885393","image-button-response","65","721603","0.0-9.0-1.11","60253","","img/Berkowitz334t.png","7",""
"","4271.8100000638515","image-slider-response","66","725876","0.0-9.0-2.11","60253","","","","61"
"","3841.1149999592453","image-slider-response","67","729718","0.0-9.0-3.11","60253","","","","71"
"","1525.2199999522418","image-button-response","68","731244","0.0-9.0-4.11","60253","","img/Berkowitz334t.png","1",""
"","5036.125000100583","image-button-response","69","736282","0.0-9.0-0.12","60253","","img/Berkowitz3.png","0",""
"","2282.9749998636544","image-button-response","70","738566","0.0-9.0-1.12","60253","","img/Berkowitz3.png","3",""
"","6820.809999946505","image-slider-response","71","745388","0.0-9.0-2.12","60253","","","","0"
"","8752.949999878183","image-slider-response","72","754142","0.0-9.0-3.12","60253","","","","100"
"","1195.2400000300258","image-button-response","73","755338","0.0-9.0-4.12","60253","","img/Berkowitz3.png","1",""
"","20676.80500005372","image-button-response","74","776016","0.0-9.0-0.13","60253","","img/Berkowitz70.png","2",""
"","6211.25499997288","image-button-response","75","782229","0.0-9.0-1.13","60253","","img/Berkowitz70.png","5",""
"","6452.5849998462945","image-slider-response","76","788682","0.0-9.0-2.13","60253","","","","50"
"","3457.0799998473376","image-slider-response","77","792140","0.0-9.0-3.13","60253","","","","23"
"","1587.2400000225753","image-button-response","78","793728","0.0-9.0-4.13","60253","","img/Berkowitz70.png","1",""
"","11039.014999987558","image-button-response","79","804769","0.0-9.0-0.14","60253","","img/Berkowitz75.png","2",""
"","12930.785000091419","image-button-response","80","817701","0.0-9.0-1.14","60253","","img/Berkowitz75.png","2",""
"","7502.894999925047","image-slider-response","81","825205","0.0-9.0-2.14","60253","","","","15"
"","4074.9299998860806","image-slider-response","82","829281","0.0-9.0-3.14","60253","","","","65"
"","1681.150000076741","image-button-response","83","830963","0.0-9.0-4.14","60253","","img/Berkowitz75.png","1",""
"","14559.110000031069","image-button-response","84","845523","0.0-9.0-0.15","60253","","img/Berkowitz74.png","2",""
"","4170.8599999547005","image-button-response","85","849695","0.0-9.0-1.15","60253","","img/Berkowitz74.png","1",""
"","3400.965000037104","image-slider-response","86","853097","0.0-9.0-2.15","60253","","","","0"
"","6076.965000014752","image-slider-response","87","859175","0.0-9.0-3.15","60253","","","","100"
"","1487.229999853298","image-button-response","88","860663","0.0-9.0-4.15","60253","","img/Berkowitz74.png","1",""
"","13683.125000214204","image-button-response","89","874349","0.0-9.0-0.16","60253","","img/Berkowitz282.png","1",""
"","3682.879999978468","image-button-response","90","878033","0.0-9.0-1.16","60253","","img/Berkowitz282.png","5",""
"","2970.8349998109043","image-slider-response","91","881004","0.0-9.0-2.16","60253","","","","20"
"","4161.05500003323","image-slider-response","92","885167","0.0-9.0-3.16","60253","","","","30"
"","2433.0200001131743","image-button-response","93","887600","0.0-9.0-4.16","60253","","img/Berkowitz282.png","1",""
"","20017.06500002183","image-button-response","94","907618","0.0-9.0-0.17","60253","","img/Berkowitz59.png","3",""
"","12274.85499996692","image-button-response","95","919894","0.0-9.0-1.17","60253","","img/Berkowitz59.png","5",""
"","3354.825000045821","image-slider-response","96","923250","0.0-9.0-2.17","60253","","","","50"
"","4605.319999856874","image-slider-response","97","927856","0.0-9.0-3.17","60253","","","","19"
"","1836.8900001514703","image-button-response","98","929694","0.0-9.0-4.17","60253","","img/Berkowitz59.png","1",""
"","35308.87500010431","image-button-response","99","965006","0.0-9.0-0.18","60253","","img/Berkowitz417tx.png","2",""
"","2032.975000096485","image-button-response","100","967040","0.0-9.0-1.18","60253","","img/Berkowitz417tx.png","7",""
"","4440.7600001432","image-slider-response","101","971481","0.0-9.0-2.18","60253","","","","28"
"","3206.97999978438","image-slider-response","102","974689","0.0-9.0-3.18","60253","","","","20"
"","1845.1549999881536","image-button-response","103","976535","0.0-9.0-4.18","60253","","img/Berkowitz417tx.png","1",""
"","18381.085000000894","image-button-response","104","994917","0.0-9.0-0.19","60253","","img/Berkowitz312.png","3",""
"","4606.999999843538","image-button-response","105","999526","0.0-9.0-1.19","60253","","img/Berkowitz312.png","5",""
"","2900.679999962449","image-slider-response","106","1002427","0.0-9.0-2.19","60253","","","","37"
"","7234.954999992624","image-slider-response","107","1009663","0.0-9.0-3.19","60253","","","","88"
"","1821.1749999318272","image-button-response","108","1011485","0.0-9.0-4.19","60253","","img/Berkowitz312.png","1",""
"","6351.225000107661","survey-text","109","1017837","0.0-10.0","60253","{""Q0"":""No""}","","",""
"","104796.60000000149","survey-text","110","1122636","0.0-11.0","60253","{""Q0"":""One example (In 6/8, I think, and with an F# in the last measure) was missing courtesy accidentals, and made me think it might have been missing some other necessary accidentals as well.""}","","",""
"","9997.080000117421","survey-text","111","1132634","0.0-12.0","60253","{""Q0"":""George K. Halsell"",""Q1"":""ghalsell@csi.edu""}","","",""
"[{""page_index"":0,""viewing_time"":12475.254999939352}]","12475.499999942258","instructions","112","1145110","0.0-13.0","60253","","","",""
