"view_history","rt","trial_type","trial_index","time_elapsed","internal_node_id","subject","responses","stimulus","button_pressed","response"
"[{""page_index"":0,""viewing_time"":5166.999999986729},{""page_index"":1,""viewing_time"":27532.165000011446},{""page_index"":2,""viewing_time"":13769.234999985201}]","46469.054999994114","instructions","0","46475","0.0-0.0","79464","","","",""
"","5706.485000002431","survey-text","1","52184","0.0-1.0","79464","{""Q0"":""64""}","","",""
"","17669.04499998782","survey-text","2","69852","0.0-2.0","79464","{""Q0"":""Completed Master's Degree""}","","",""
"","12704.115000000456","survey-text","3","82558","0.0-3.0","79464","{""Q0"":""25""}","","",""
"","16689.944999990985","survey-text","4","99249","0.0-4.0","79464","{""Q0"":""Moveable Do""}","","",""
"","6018.249999993714","survey-text","5","105268","0.0-5.0","79464","{""Q0"":""piano""}","","",""
"","16808.164999994915","survey-text","6","122099","0.0-6.0","79464","{""Q0"":""MM Piano Pedagogy""}","","",""
"","12196.285000012722","survey-text","7","134297","0.0-7.0","79464","{""Q0"":""The College of Southern Idaho""}","","",""
"[{""page_index"":0,""viewing_time"":4198.625000019092},{""page_index"":1,""viewing_time"":30964.509999990696},{""page_index"":2,""viewing_time"":14349.669999995967},{""page_index"":3,""viewing_time"":9591.25500000664}]","59104.59500001161","instructions","8","193401","0.0-8.0","79464","","","",""
"","24690.565000026254","image-button-response","9","218095","0.0-9.0-0.0","79464","","img/Berkowitz379.png","3",""
"","11758.485000027576","image-button-response","10","229856","0.0-9.0-1.0","79464","","img/Berkowitz379.png","9",""
"","14634.805000008782","image-slider-response","11","244496","0.0-9.0-2.0","79464","","","","80"
"","31778.644999983953","image-slider-response","12","276276","0.0-9.0-3.0","79464","","","","50"
"","2790.1249999995343","image-button-response","13","279068","0.0-9.0-4.0","79464","","img/Berkowitz379.png","1",""
"","10217.894999979762","image-button-response","14","289288","0.0-9.0-0.1","79464","","img/Berkowitz607tx.png","4",""
"","2946.044999989681","image-button-response","15","292236","0.0-9.0-1.1","79464","","img/Berkowitz607tx.png","9",""
"","7617.885000014212","image-slider-response","16","299855","0.0-9.0-2.1","79464","","","","99"
"","29078.79500000854","image-slider-response","17","328925","0.0-9.0-3.1","79464","","","","4"
"","2082.380000007106","image-button-response","18","331009","0.0-9.0-4.1","79464","","img/Berkowitz607tx.png","1",""
"","19133.720000012545","image-button-response","19","350144","0.0-9.0-0.2","79464","","img/Berkowitz622.png","4",""
"","5598.304999992251","image-button-response","20","355745","0.0-9.0-1.2","79464","","img/Berkowitz622.png","9",""
"","6319.5249999989755","image-slider-response","21","362066","0.0-9.0-2.2","79464","","","","100"
"","10807.730000000447","image-slider-response","22","372892","0.0-9.0-3.2","79464","","","","21"
"","2074.594999983674","image-button-response","23","374968","0.0-9.0-4.2","79464","","img/Berkowitz622.png","1",""
"","11469.875000009779","image-button-response","24","386440","0.0-9.0-0.3","79464","","img/Berkowitz75.png","2",""
"","18215.52500000689","image-button-response","25","404657","0.0-9.0-1.3","79464","","img/Berkowitz75.png","4",""
"","22984.989999997197","image-slider-response","26","427644","0.0-9.0-2.3","79464","","","","14"
"","11155.755000014324","image-slider-response","27","438807","0.0-9.0-3.3","79464","","","","85"
"","9946.490000002086","image-button-response","28","448755","0.0-9.0-4.3","79464","","img/Berkowitz75.png","1",""
"","24987.19999997411","image-button-response","29","473744","0.0-9.0-0.4","79464","","img/Berkowitz629.png","4",""
"","5511.530000017956","image-button-response","30","479257","0.0-9.0-1.4","79464","","img/Berkowitz629.png","9",""
"","8334.359999978915","image-slider-response","31","487593","0.0-9.0-2.4","79464","","","","76"
"","14609.304999990854","image-slider-response","32","502198","0.0-9.0-3.4","79464","","","","29"
"","2628.480000013951","image-button-response","33","504828","0.0-9.0-4.4","79464","","img/Berkowitz629.png","1",""
"","21333.814999990864","image-button-response","34","526163","0.0-9.0-0.5","79464","","img/Berkowitz312.png","3",""
"","10421.174999995856","image-button-response","35","536586","0.0-9.0-1.5","79464","","img/Berkowitz312.png","8",""
"","7904.015000007348","image-slider-response","36","544492","0.0-9.0-2.5","79464","","","","69"
"","6701.8800000078045","image-slider-response","37","551195","0.0-9.0-3.5","79464","","","","73"
"","7168.4450000175275","image-button-response","38","558378","0.0-9.0-4.5","79464","","img/Berkowitz312.png","1",""
"","16305.779999995138","image-button-response","39","574685","0.0-9.0-0.6","79464","","img/Berkowitz282.png","1",""
"","29666.85999999754","image-button-response","40","604354","0.0-9.0-1.6","79464","","img/Berkowitz282.png","7",""
"","12304.925000004005","image-slider-response","41","616661","0.0-9.0-2.6","79464","","","","21"
"","10338.285000005271","image-slider-response","42","626989","0.0-9.0-3.6","79464","","","","26"
"","2252.3849999997765","image-button-response","43","629243","0.0-9.0-4.6","79464","","img/Berkowitz282.png","1",""
"","23127.5350000069","image-button-response","44","652372","0.0-9.0-0.7","79464","","img/Berkowitz334t.png","2",""
"","3186.8949999916367","image-button-response","45","655560","0.0-9.0-1.7","79464","","img/Berkowitz334t.png","9",""
"","13789.12999999011","image-slider-response","46","669354","0.0-9.0-2.7","79464","","","","66"
"","11626.004999998258","image-slider-response","47","680982","0.0-9.0-3.7","79464","","","","73"
"","2082.2250000201166","image-button-response","48","683066","0.0-9.0-4.7","79464","","img/Berkowitz334t.png","1",""
"","21120.029999990948","image-button-response","49","704202","0.0-9.0-0.8","79464","","img/Berkowitz294.png","2",""
"","6723.304999992251","image-button-response","50","710927","0.0-9.0-1.8","79464","","img/Berkowitz294.png","7",""
"","8091.635000018869","image-slider-response","51","719020","0.0-9.0-2.8","79464","","","","65"
"","8075.925000011921","image-slider-response","52","727098","0.0-9.0-3.8","79464","","","","84"
"","6018.24000000488","image-button-response","53","733118","0.0-9.0-4.8","79464","","img/Berkowitz294.png","0",""
"","23269.48000001721","image-button-response","54","756383","0.0-9.0-0.9","79464","","img/Berkowitz88.png","2",""
"","2090.4950000112876","image-button-response","55","758475","0.0-9.0-1.9","79464","","img/Berkowitz88.png","7",""
"","6753.23999999091","image-slider-response","56","765230","0.0-9.0-2.9","79464","","","","64"
"","4640.234999998938","image-slider-response","57","769872","0.0-9.0-3.9","79464","","","","82"
"","1700.844999984838","image-button-response","58","771574","0.0-9.0-4.9","79464","","img/Berkowitz88.png","1",""
"","22393.7900000019","image-button-response","59","793969","0.0-9.0-0.10","79464","","img/Berkowitz59.png","1",""
"","1070.0899999937974","image-button-response","60","795041","0.0-9.0-1.10","79464","","img/Berkowitz59.png","9",""
"","4555.514999985462","image-slider-response","61","799598","0.0-9.0-2.10","79464","","","","63"
"","4780.009999987669","image-slider-response","62","804380","0.0-9.0-3.10","79464","","","","18"
"","1956.4750000135973","image-button-response","63","806338","0.0-9.0-4.10","79464","","img/Berkowitz59.png","1",""
"","20065.70500001544","image-button-response","64","826409","0.0-9.0-0.11","79464","","img/Berkowitz156.png","2",""
"","2082.094999990659","image-button-response","65","828493","0.0-9.0-1.11","79464","","img/Berkowitz156.png","9",""
"","6387.515000009444","image-slider-response","66","834883","0.0-9.0-2.11","79464","","","","71"
"","7305.909999995492","image-slider-response","67","842190","0.0-9.0-3.11","79464","","","","79"
"","1320.7199999887962","image-button-response","68","843512","0.0-9.0-4.11","79464","","img/Berkowitz156.png","1",""
"","22269.71500000218","image-button-response","69","865786","0.0-9.0-0.12","79464","","img/Berkowitz70.png","2",""
"","1250.5999999993946","image-button-response","70","867038","0.0-9.0-1.12","79464","","img/Berkowitz70.png","9",""
"","4987.334999983432","image-slider-response","71","872027","0.0-9.0-2.12","79464","","","","69"
"","4459.9250000028405","image-slider-response","72","876489","0.0-9.0-3.12","79464","","","","89"
"","1632.4949999980163","image-button-response","73","878122","0.0-9.0-4.12","79464","","img/Berkowitz70.png","1",""
"","25811.515000008512","image-button-response","74","903940","0.0-9.0-0.13","79464","","img/Berkowitz627.png","4",""
"","2236.124999995809","image-button-response","75","906178","0.0-9.0-1.13","79464","","img/Berkowitz627.png","9",""
"","4586.17000002414","image-slider-response","76","910766","0.0-9.0-2.13","79464","","","","100"
"","8090.085000003455","image-slider-response","77","918857","0.0-9.0-3.13","79464","","","","11"
"","1266.410000011092","image-button-response","78","920125","0.0-9.0-4.13","79464","","img/Berkowitz627.png","1",""
"","20857.970000011846","image-button-response","79","940984","0.0-9.0-0.14","79464","","img/Berkowitz382t.png","1",""
"","4802.094999991823","image-button-response","80","945788","0.0-9.0-1.14","79464","","img/Berkowitz382t.png","7",""
"","4079.5100000104867","image-slider-response","81","949869","0.0-9.0-2.14","79464","","","","67"
"","4478.639999986626","image-slider-response","82","954350","0.0-9.0-3.14","79464","","","","100"
"","1816.0149999894202","image-button-response","83","956167","0.0-9.0-4.14","79464","","img/Berkowitz382t.png","1",""
"","33889.18500000727","image-button-response","84","990063","0.0-9.0-0.15","79464","","img/Berkowitz417tx.png","1",""
"","2922.3150000034366","image-button-response","85","992987","0.0-9.0-1.15","79464","","img/Berkowitz417tx.png","9",""
"","10103.434999997262","image-slider-response","86","1003092","0.0-9.0-2.15","79464","","","","60"
"","4182.725000020582","image-slider-response","87","1007276","0.0-9.0-3.15","79464","","","","100"
"","1878.4549999982119","image-button-response","88","1009156","0.0-9.0-4.15","79464","","img/Berkowitz417tx.png","0",""
"","5526.049999985844","image-button-response","89","1014683","0.0-9.0-0.16","79464","","img/Berkowitz74.png","2",""
"","4218.105000007199","image-button-response","90","1018903","0.0-9.0-1.16","79464","","img/Berkowitz74.png","2",""
"","11083.909999986645","image-slider-response","91","1029989","0.0-9.0-2.16","79464","","","","16"
"","7346.29000001587","image-slider-response","92","1037336","0.0-9.0-3.16","79464","","","","100"
"","2322.199999995064","image-button-response","93","1039660","0.0-9.0-4.16","79464","","img/Berkowitz74.png","1",""
"","9712.180000002263","image-button-response","94","1049387","0.0-9.0-0.17","79464","","img/Berkowitz26.png","1",""
"","1810.5050000012852","image-button-response","95","1051199","0.0-9.0-1.17","79464","","img/Berkowitz26.png","4",""
"","4459.984999994049","image-slider-response","96","1055661","0.0-9.0-2.17","79464","","","","50"
"","3845.8300000056624","image-slider-response","97","1059508","0.0-9.0-3.17","79464","","","","100"
"","3286.584999994375","image-button-response","98","1062796","0.0-9.0-4.17","79464","","img/Berkowitz26.png","0",""
"","12256.60500000231","image-button-response","99","1075054","0.0-9.0-0.18","79464","","img/Berkowitz3.png","1",""
"","3947.7499999920838","image-button-response","100","1079004","0.0-9.0-1.18","79464","","img/Berkowitz3.png","4",""
"","17217.225000000326","image-slider-response","101","1096222","0.0-9.0-2.18","79464","","","","20"
"","3652.0650000020396","image-slider-response","102","1099876","0.0-9.0-3.18","79464","","","","100"
"","10784.2149999924","image-button-response","103","1110655","0.0-9.0-4.18","79464","","img/Berkowitz3.png","0",""
"","10930.194999993546","image-button-response","104","1121587","0.0-9.0-0.19","79464","","img/Berkowitz9.png","1",""
"","3224.5699999912176","image-button-response","105","1124813","0.0-9.0-1.19","79464","","img/Berkowitz9.png","4",""
"","3215.765000000829","image-slider-response","106","1128030","0.0-9.0-2.19","79464","","","","50"
"","3684.559999994235","image-slider-response","107","1131717","0.0-9.0-3.19","79464","","","","100"
"","2166.31500000949","image-button-response","108","1133884","0.0-9.0-4.19","79464","","img/Berkowitz9.png","1",""
"","7298.5200000111945","survey-text","109","1141184","0.0-10.0","79464","{""Q0"":""no""}","","",""
"","15580.534999986412","survey-text","110","1156766","0.0-11.0","79464","{""Q0"":""maybe""}","","",""
"","13964.270000025863","survey-text","111","1170752","0.0-12.0","79464","{""Q0"":""Sue Miller"",""Q1"":""smiller@csi.edu""}","","",""
"[{""page_index"":0,""viewing_time"":7482.010000006994}]","7482.334999978775","instructions","112","1178235","0.0-13.0","79464","","","",""
