"view_history","rt","trial_type","trial_index","time_elapsed","internal_node_id","subject","responses","stimulus","button_pressed","response"
"[{""page_index"":0,""viewing_time"":4409.235000028275},{""page_index"":1,""viewing_time"":28950.534999981755},{""page_index"":2,""viewing_time"":11303.169999999227}]","44663.50500000408","instructions","0","44668","0.0-0.0","89291","","","",""
"","9908.494999981485","survey-text","1","54578","0.0-1.0","89291","{""Q0"":""22""}","","",""
"","9843.265000003157","survey-text","2","64423","0.0-2.0","89291","{""Q0"":""Master's Student""}","","",""
"","9607.600000017555","survey-text","3","74032","0.0-3.0","89291","{""Q0"":""1""}","","",""
"","15653.65500000189","survey-text","4","89687","0.0-4.0","89291","{""Q0"":""Moveable-Do, Numbers""}","","",""
"","5257.634999987204","survey-text","5","94946","0.0-5.0","89291","{""Q0"":""Voice""}","","",""
"","16224.989999987883","survey-text","6","111172","0.0-6.0","89291","{""Q0"":""BM Music Theory""}","","",""
"","12375.369999994291","survey-text","7","123549","0.0-7.0","89291","{""Q0"":""The University of Texas at Austin""}","","",""
"[{""page_index"":0,""viewing_time"":4739.079999999376},{""page_index"":1,""viewing_time"":38620.510000007926},{""page_index"":2,""viewing_time"":3883.1500000087544},{""page_index"":3,""viewing_time"":2720.679999998538}]","49963.76000001328","instructions","8","173514","0.0-8.0","89291","","","",""
"","28737.970000016503","image-button-response","9","202255","0.0-9.0-0.0","89291","","img/Berkowitz88.png","1",""
"","14125.8450000023","image-button-response","10","216383","0.0-9.0-1.0","89291","","img/Berkowitz88.png","6",""
"","17945.624999993015","image-slider-response","11","234331","0.0-9.0-2.0","89291","","","","59"
"","17861.21499998262","image-slider-response","12","252194","0.0-9.0-3.0","89291","","","","70"
"","17353.904999996303","image-button-response","13","269550","0.0-9.0-4.0","89291","","img/Berkowitz88.png","1",""
"","32610.015000012936","image-button-response","14","302162","0.0-9.0-0.1","89291","","img/Berkowitz334t.png","4",""
"","6252.154999994673","image-button-response","15","308416","0.0-9.0-1.1","89291","","img/Berkowitz334t.png","7",""
"","5108.699999982491","image-slider-response","16","313526","0.0-9.0-2.1","89291","","","","70"
"","6658.159999991767","image-slider-response","17","320185","0.0-9.0-3.1","89291","","","","54"
"","5069.134999997914","image-button-response","18","325256","0.0-9.0-4.1","89291","","img/Berkowitz334t.png","1",""
"","24296.644999994896","image-button-response","19","349554","0.0-9.0-0.2","89291","","img/Berkowitz379.png","4",""
"","17446.980000007898","image-button-response","20","367003","0.0-9.0-1.2","89291","","img/Berkowitz379.png","9",""
"","3550.1450000156183","image-slider-response","21","370555","0.0-9.0-2.2","89291","","","","90"
"","11543.46000001533","image-slider-response","22","382100","0.0-9.0-3.2","89291","","","","42"
"","15614.48499999824","image-button-response","23","397716","0.0-9.0-4.2","89291","","img/Berkowitz379.png","1",""
"","31729.58000001381","image-button-response","24","429447","0.0-9.0-0.3","89291","","img/Berkowitz26.png","0",""
"","3873.6400000052527","image-button-response","25","433322","0.0-9.0-1.3","89291","","img/Berkowitz26.png","3",""
"","5487.250000005588","image-slider-response","26","438811","0.0-9.0-2.3","89291","","","","15"
"","7289.220000006026","image-slider-response","27","446102","0.0-9.0-3.3","89291","","","","86"
"","3233.6800000048243","image-button-response","28","449337","0.0-9.0-4.3","89291","","img/Berkowitz26.png","0",""
"","22867.93999999645","image-button-response","29","472206","0.0-9.0-0.4","89291","","img/Berkowitz59.png","4",""
"","21117.04000001191","image-button-response","30","493325","0.0-9.0-1.4","89291","","img/Berkowitz59.png","6",""
"","3256.839999987278","image-slider-response","31","496583","0.0-9.0-2.4","89291","","","","55"
"","8255.639999988489","image-slider-response","32","504840","0.0-9.0-3.4","89291","","","","24"
"","7312.15000001248","image-button-response","33","512154","0.0-9.0-4.4","89291","","img/Berkowitz59.png","1",""
"","96106.70000000391","image-button-response","34","608264","0.0-9.0-0.5","89291","","img/Berkowitz156.png","1",""
"","1927.9449999739882","image-button-response","35","610194","0.0-9.0-1.5","89291","","img/Berkowitz156.png","5",""
"","4103.499999997439","image-slider-response","36","614298","0.0-9.0-2.5","89291","","","","45"
"","4015.3750000172295","image-slider-response","37","618315","0.0-9.0-3.5","89291","","","","73"
"","1597.3099999828264","image-button-response","38","619914","0.0-9.0-4.5","89291","","img/Berkowitz156.png","1",""
"","28123.814999999013","image-button-response","39","648040","0.0-9.0-0.6","89291","","img/Berkowitz627.png","5",""
"","7156.539999996312","image-button-response","40","655198","0.0-9.0-1.6","89291","","img/Berkowitz627.png","9",""
"","8128.590000007534","image-slider-response","41","663328","0.0-9.0-2.6","89291","","","","99"
"","5590.655000007246","image-slider-response","42","668920","0.0-9.0-3.6","89291","","","","5"
"","5724.640000000363","image-button-response","43","674646","0.0-9.0-4.6","89291","","img/Berkowitz627.png","1",""
"","41401.35499997996","image-button-response","44","716049","0.0-9.0-0.7","89291","","img/Berkowitz607tx.png","5",""
"","12829.389999998966","image-button-response","45","728881","0.0-9.0-1.7","89291","","img/Berkowitz607tx.png","9",""
"","4095.7300000009127","image-slider-response","46","732980","0.0-9.0-2.7","89291","","","","89"
"","3491.92500000936","image-slider-response","47","736474","0.0-9.0-3.7","89291","","","","9"
"","4436.359999992419","image-button-response","48","740911","0.0-9.0-4.7","89291","","img/Berkowitz607tx.png","1",""
"","8988.70500002522","image-button-response","49","749901","0.0-9.0-0.8","89291","","img/Berkowitz75.png","0",""
"","5589.579999999842","image-button-response","50","755492","0.0-9.0-1.8","89291","","img/Berkowitz75.png","3",""
"","3122.1849999856204","image-slider-response","51","758616","0.0-9.0-2.8","89291","","","","34"
"","7891.015000001062","image-slider-response","52","766508","0.0-9.0-3.8","89291","","","","82"
"","2940.919999993639","image-button-response","53","769451","0.0-9.0-4.8","89291","","img/Berkowitz75.png","1",""
"","21478.184999985388","image-button-response","54","790930","0.0-9.0-0.9","89291","","img/Berkowitz282.png","3",""
"","18339.929999987362","image-button-response","55","809272","0.0-9.0-1.9","89291","","img/Berkowitz282.png","3",""
"","2821.680000022752","image-slider-response","56","812095","0.0-9.0-2.9","89291","","","","43"
"","9210.889999987558","image-slider-response","57","821308","0.0-9.0-3.9","89291","","","","31"
"","4364.529999991646","image-button-response","58","825674","0.0-9.0-4.9","89291","","img/Berkowitz282.png","1",""
"","14157.64499999932","image-button-response","59","839833","0.0-9.0-0.10","89291","","img/Berkowitz294.png","2",""
"","6435.519999999087","image-button-response","60","846270","0.0-9.0-1.10","89291","","img/Berkowitz294.png","5",""
"","3429.49999999837","image-slider-response","61","849701","0.0-9.0-2.10","89291","","","","54"
"","3344.185000023572","image-slider-response","62","853047","0.0-9.0-3.10","89291","","","","87"
"","1382.6899999985471","image-button-response","63","854431","0.0-9.0-4.10","89291","","img/Berkowitz294.png","1",""
"","7859.52000002726","image-button-response","64","862292","0.0-9.0-0.11","89291","","img/Berkowitz9.png","0",""
"","7141.954999999143","image-button-response","65","869435","0.0-9.0-1.11","89291","","img/Berkowitz9.png","3",""
"","3137.9699999815784","image-slider-response","66","872574","0.0-9.0-2.11","89291","","","","2"
"","4419.544999982463","image-slider-response","67","876995","0.0-9.0-3.11","89291","","","","77"
"","2268.3149999938905","image-button-response","68","879265","0.0-9.0-4.11","89291","","img/Berkowitz9.png","1",""
"","11400.289999990491","image-button-response","69","890668","0.0-9.0-0.12","89291","","img/Berkowitz70.png","1",""
"","5656.2749999866355","image-button-response","70","896326","0.0-9.0-1.12","89291","","img/Berkowitz70.png","5",""
"","2892.280000000028","image-slider-response","71","899220","0.0-9.0-2.12","89291","","","","44"
"","3786.804999981541","image-slider-response","72","903008","0.0-9.0-3.12","89291","","","","82"
"","1113.6350000160746","image-button-response","73","904123","0.0-9.0-4.12","89291","","img/Berkowitz70.png","1",""
"","84821.66500002495","image-button-response","74","988948","0.0-9.0-0.13","89291","","img/Berkowitz417tx.png","1",""
"","8120.924999995623","image-button-response","75","997070","0.0-9.0-1.13","89291","","img/Berkowitz417tx.png","6",""
"","2544.785000005504","image-slider-response","76","999617","0.0-9.0-2.13","89291","","","","41"
"","2718.714999995427","image-slider-response","77","1002337","0.0-9.0-3.13","89291","","","","79"
"","1185.0399999821093","image-button-response","78","1003523","0.0-9.0-4.13","89291","","img/Berkowitz417tx.png","1",""
"","23248.174999986077","image-button-response","79","1026773","0.0-9.0-0.14","89291","","img/Berkowitz312.png","2",""
"","5050.300000002608","image-button-response","80","1031824","0.0-9.0-1.14","89291","","img/Berkowitz312.png","5",""
"","3090.8000000054017","image-slider-response","81","1034917","0.0-9.0-2.14","89291","","","","44"
"","6260.544999997364","image-slider-response","82","1041179","0.0-9.0-3.14","89291","","","","56"
"","1516.284999990603","image-button-response","83","1042696","0.0-9.0-4.14","89291","","img/Berkowitz312.png","1",""
"","10924.175000021933","image-button-response","84","1053622","0.0-9.0-0.15","89291","","img/Berkowitz629.png","4",""
"","10579.79499999783","image-button-response","85","1064203","0.0-9.0-1.15","89291","","img/Berkowitz629.png","6",""
"","2616.3550000055693","image-slider-response","86","1066821","0.0-9.0-2.15","89291","","","","67"
"","5408.225000021048","image-slider-response","87","1072230","0.0-9.0-3.15","89291","","","","43"
"","893.0749999999534","image-button-response","88","1073125","0.0-9.0-4.15","89291","","img/Berkowitz629.png","1",""
"","7601.239999989048","image-button-response","89","1080727","0.0-9.0-0.16","89291","","img/Berkowitz3.png","0",""
"","1761.304999992717","image-button-response","90","1082490","0.0-9.0-1.16","89291","","img/Berkowitz3.png","3",""
"","3012.350000004517","image-slider-response","91","1085504","0.0-9.0-2.16","89291","","","","3"
"","6839.589999988675","image-slider-response","92","1092345","0.0-9.0-3.16","89291","","","","89"
"","1445.2999999921303","image-button-response","93","1093792","0.0-9.0-4.16","89291","","img/Berkowitz3.png","1",""
"","10659.480000002077","image-button-response","94","1104453","0.0-9.0-0.17","89291","","img/Berkowitz382t.png","3",""
"","5226.109999988694","image-button-response","95","1109681","0.0-9.0-1.17","89291","","img/Berkowitz382t.png","4",""
"","2734.9249999970198","image-slider-response","96","1112417","0.0-9.0-2.17","89291","","","","55"
"","6815.105000016047","image-slider-response","97","1119233","0.0-9.0-3.17","89291","","","","44"
"","1643.355000007432","image-button-response","98","1120879","0.0-9.0-4.17","89291","","img/Berkowitz382t.png","1",""
"","15767.759999987902","image-button-response","99","1136648","0.0-9.0-0.18","89291","","img/Berkowitz622.png","5",""
"","4720.49499998684","image-button-response","100","1141370","0.0-9.0-1.18","89291","","img/Berkowitz622.png","7",""
"","2560.8699999866076","image-slider-response","101","1143932","0.0-9.0-2.18","89291","","","","82"
"","2663.7400000181515","image-slider-response","102","1146597","0.0-9.0-3.18","89291","","","","27"
"","932.8049999894574","image-button-response","103","1147531","0.0-9.0-4.18","89291","","img/Berkowitz622.png","1",""
"","6449.13500000257","image-button-response","104","1153981","0.0-9.0-0.19","89291","","img/Berkowitz74.png","0",""
"","1366.7399999976624","image-button-response","105","1155350","0.0-9.0-1.19","89291","","img/Berkowitz74.png","3",""
"","3225.3400000045076","image-slider-response","106","1158576","0.0-9.0-2.19","89291","","","","14"
"","2308.5600000049453","image-slider-response","107","1160886","0.0-9.0-3.19","89291","","","","77"
"","2236.574999988079","image-button-response","108","1163124","0.0-9.0-4.19","89291","","img/Berkowitz74.png","1",""
"","7665.99499998847","survey-text","109","1170791","0.0-10.0","89291","{""Q0"":""No""}","","",""
"","6412.020000017947","survey-text","110","1177204","0.0-11.0","89291","{""Q0"":""No""}","","",""
"","18830.09500001208","survey-text","111","1196036","0.0-12.0","89291","{""Q0"":""Dalton Dudley"",""Q1"":""daltoncdudley@utexas.edu""}","","",""
"[{""page_index"":0,""viewing_time"":8144.350000016857}]","8144.6799999976065","instructions","112","1204181","0.0-13.0","89291","","","",""
